{
  "resourceType": "Bundle",
  "type": "collection",
  "entry": [
    {
      "resource": {
        "resourceType": "Patient",
        "id": "example-patient",
        "name": [
          {
            "use": "official",
            "family": ["Doe"],
            "given": ["John"]
          }
        ],
        "gender": "male",
        "birthDate": "1980-01-01"
      }
    },
    {
      "resource": {
        "resourceType": "Encounter",
        "id": "example-encounter",
        "status": "finished",
        "class": "outpatient",
        "patient": {
          "reference": "Patient/example-patient"
        },
        "period": {
          "start": "2025-07-20T08:00:00Z",
          "end": "2025-07-20T09:00:00Z"
        }
      }
    },
    {
      "resource": {
        "resourceType": "Condition",
        "id": "example-condition",
        "patient": {
          "reference": "Patient/example-patient"
        },
        "encounter": {
          "reference": "Encounter/example-encounter"
        },
        "code": {
          "coding": [
            {
              "system": "http://snomed.info/sct",
              "code": "44054006",
              "display": "Diabetes mellitus type 2"
            }
          ],
          "text": "Type 2 Diabetes"
        },
        "clinicalStatus": "active",
        "onsetDateTime": "2023-01-15"
      }
    }
  ]
}
