{
  "resourceType": "Bundle",
  "type": "collection",
  "entry": [
    {
      "resource": {
        "resourceType": "Patient",
        "id": "example-patient",
        "name": [
          {
            "family": ["Smith"],
            "given": ["Jane"]
          }
        ],
        "gender": "female",
        "birthDate": "1990-05-15"
      }
    },
    {
      "resource": {
        "resourceType": "Encounter",
        "id": "example-encounter",
        "status": "finished",
        "class": "ambulatory",
        "patient": {
          "reference": "Patient/example-patient"
        },
        "period": {
          "start": "2025-07-20T08:30:00Z",
          "end": "2025-07-20T09:00:00Z"
        }
      }
    },
    {
      "resource": {
        "resourceType": "Immunization",
        "id": "example-immunization",
        "status": "completed",
        "date": "2025-07-20",
        "vaccineCode": {
          "coding": [
            {
              "system": "http://hl7.org/fhir/sid/cvx",
              "code": "207",
              "display": "COVID-19, mRNA, LNP-S, PF, 100 mcg/0.5 mL dose"
            }
          ]
        },
        "patient": {
          "reference": "Patient/example-patient"
        },
        "encounter": {
          "reference": "Encounter/example-encounter"
        },
        "wasNotGiven": false,
        "reported": false,
        "primarySource": true,
        "route": {
          "coding": [
            {
              "system": "http://hl7.org/fhir/v3/RouteOfAdministration",
              "code": "IM",
              "display": "Intramuscular"
            }
          ]
        },
        "doseQuantity": {
          "value": 0.5,
          "unit": "mL",
          "system": "http://unitsofmeasure.org",
          "code": "mL"
        }
      }
    }
  ]
}
