{"resourceType":"Bundle","entry":[{"resource":{"resourceType":"Patient","id":"12742571","meta":{"versionId":"5","lastUpdated":"2020-05-13T13:40:21.000Z"},"text":{"status":"extensions","div":"<div xmlns=\"http://www.w3.org/1999/xhtml\"><p><b>Patient</b></p><p><b>Name</b>: FHIRTest, COVIDONE</p><p><b>Status</b>: Active</p><p><b>DOB</b>: Jan  2, 1970</p><p><b>Birth Sex</b>: Male</p><p><b>Administrative Gender</b>: Male</p><p><b>Marital Status</b>: Single</p></div>"},"extension":[{"url":"http://hl7.org/fhir/us/core/StructureDefinition/us-core-birthsex","valueCode":"M"},{"url":"http://hl7.org/fhir/us/core/StructureDefinition/us-core-race","extension":[{"url":"ombCategory","valueCoding":{"system":"urn:oid:2.16.840.1.113883.6.238","code":"2054-5","display":"Black or African American","userSelected":false}},{"url":"text","valueString":"Black or African American"}]},{"url":"http://hl7.org/fhir/us/core/StructureDefinition/us-core-ethnicity","extension":[{"url":"ombCategory","valueCoding":{"system":"urn:oid:2.16.840.1.113883.6.238","code":"2186-5","display":"Not Hispanic or Latino","userSelected":false}},{"url":"text","valueString":"Not Hispanic, Latino, or Spanish Origin"}]}],"identifier":[{"id":"CI-490056856-0","use":"usual","type":{"coding":[{"system":"https://fhir.cerner.com/ec2458f2-1e24-41c8-b71b-0e701af7583d/codeSet/4","code":"10","display":"MRN","userSelected":true},{"system":"http://terminology.hl7.org/CodeSystem/v2-0203","code":"MR","display":"Medical record number","userSelected":false}],"text":"MRN"},"system":"urn:oid:2.16.840.1.113883.6.1000","value":"490056856","period":{"start":"2020-05-12T13:40:56.000Z"}}],"active":true,"name":[{"id":"CI-12742571-0","use":"official","text":"FHIRTest, COVIDONE","family":"FHIRTest","given":["COVIDONE"],"period":{"start":"2020-05-12T13:40:56.000Z"}},{"id":"CI-490056870-0","use":"usual","text":"HARRIS, JEFF","family":"FHIRTest","given":["JEFF"],"period":{"start":"2020-05-12T13:40:56.000Z"}}],"telecom":[{"id":"CI-PH-29822750-0","system":"phone","value":"2125555554","use":"mobile","rank":1,"period":{"start":"2020-05-12T13:40:56.000Z"}}],"gender":"male","birthDate":"1970-01-02","address":[{"id":"CI-24326634-0","use":"home","text":"2801 ROCK CREEK PKWY\nKANSAS CITY, MO 64117\nUS","line":["2801 ROCK CREEK PKWY"],"city":"KANSAS CITY","state":"MO","postalCode":"64117","country":"US","period":{"start":"2020-05-12T13:40:56.000Z"}}],"maritalStatus":{"coding":[{"system":"https://fhir.cerner.com/ec2458f2-1e24-41c8-b71b-0e701af7583d/codeSet/38","code":"309239","display":"Single","userSelected":true},{"system":"http://terminology.hl7.org/CodeSystem/v3-MaritalStatus","code":"U","display":"unmarried","userSelected":false}],"text":"Single"},"contact":[{"relationship":[{"coding":[{"system":"https://fhir.cerner.com/ec2458f2-1e24-41c8-b71b-0e701af7583d/codeSet/351","code":"1152","display":"Emergency Contact","userSelected":true},{"system":"http://terminology.hl7.org/CodeSystem/v2-0131","code":"C","display":"Emergency Contact","userSelected":false}],"text":"Emergency Contact"}],"name":{"id":"CI-12742541-0","use":"official","text":"HARRIS, DANA","family":"HARRIS","given":["DANA"]},"telecom":[{"system":"phone","value":"2125555553","use":"home","rank":1,"period":{"start":"2020-04-27T16:36:47.000Z"}},{"system":"email","value":"dharris@gmail.com","use":"home","rank":1,"period":{"start":"2020-07-28T14:53:41.000Z"}}],"address":{"use":"home","text":"\nUS","country":"US","period":{"start":"2020-09-09T22:24:03.000Z"}},"period":{"start":"2020-05-12T13:40:56.000Z"}},{"relationship":[{"coding":[{"system":"https://fhir.cerner.com/ec2458f2-1e24-41c8-b71b-0e701af7583d/codeSet/351","code":"1156","display":"Guardian","userSelected":true}],"text":"Guardian"}],"name":{"id":"CI-12742541-0","use":"official","text":"HARRIS, DANA","family":"HARRIS","given":["DANA"]},"telecom":[{"system":"phone","value":"2125555553","use":"home","rank":1,"period":{"start":"2020-04-27T16:36:47.000Z"}},{"system":"email","value":"dharris@gmail.com","use":"home","rank":1,"period":{"start":"2020-07-28T14:53:41.000Z"}}],"address":{"use":"home","text":"\nUS","country":"US","period":{"start":"2020-09-09T22:24:03.000Z"}},"period":{"start":"2020-05-12T13:40:56.000Z"}}],"communication":[{"language":{"coding":[{"system":"https://fhir.cerner.com/ec2458f2-1e24-41c8-b71b-0e701af7583d/codeSet/36","code":"151","display":"English","userSelected":true},{"system":"urn:ietf:bcp:47","code":"en","display":"English","userSelected":false}],"text":"English"},"preferred":true}],"generalPractitioner":[{"id":"CI-490056893-0","reference":"Practitioner/11938004","display":"Bradford, MD, Michael Cerner"}]}},{"resource":{"resourceType":"Practitioner","id":"11817978","meta":{"versionId":"5","lastUpdated":"2020-09-14T16:12:25.000Z"},"text":{"status":"generated","div":"<div xmlns=\"http://www.w3.org/1999/xhtml\"><p><b>Practitioner</b></p><p><b>Name</b>: Carter, Kristin Cerner</p><p><b>Identifiers</b>: EXTERNALID: DEMODOCTORKC, MESSAGING: 11817978, NPI: 123456789</p><p><b>Gender</b>: Female</p><p><b>Status</b>: Active</p></div>"},"identifier":[{"use":"usual","type":{"text":"External Identifier"},"_system":{"extension":[{"url":"http://hl7.org/fhir/StructureDefinition/data-absent-reason","valueCode":"unknown"}]},"value":"DEMODOCTORKC","period":{"start":"2015-09-22T05:00:00.000Z"}},{"use":"usual","type":{"coding":[{"system":"http://terminology.hl7.org/CodeSystem/v2-0203","code":"U","display":"Unspecified identifier"}],"text":"Messaging"},"_system":{"extension":[{"url":"http://hl7.org/fhir/StructureDefinition/data-absent-reason","valueCode":"unknown"}]},"value":"11817978","period":{"start":"2015-09-22T05:00:00.000Z"}},{"use":"usual","type":{"coding":[{"system":"http://terminology.hl7.org/CodeSystem/v2-0203","code":"NPI","display":"National provider identifier"}],"text":"National Provider Identifier"},"system":"http://hl7.org/fhir/sid/us-npi","value":"123456789","period":{"start":"2016-06-21T05:00:00.000Z"}}],"active":true,"name":[{"use":"usual","text":"Carter, Kristin Cerner","family":"Carter","given":["Kristin","Cerner"],"period":{"start":"2017-01-24T15:37:42.000Z"}}],"telecom":[{"system":"email","value":"kcarter@gmail.com","use":"work"},{"system":"phone","value":"2122122211","use":"work"},{"system":"fax","value":"2322223333","use":"work"}],"address":[{"use":"work","text":"1234 Main St\nKansas City, 64113\nUS","line":["1234 Main St"],"city":"Kansas City","postalCode":"64113","country":"US"}],"gender":"female"}},{"resource":{"resourceType":"Practitioner","id":"11817978","meta":{"versionId":"5","lastUpdated":"2020-09-14T16:12:25.000Z"},"text":{"status":"generated","div":"<div xmlns=\"http://www.w3.org/1999/xhtml\"><p><b>Practitioner</b></p><p><b>Name</b>: Carter, Kristin Cerner</p><p><b>Identifiers</b>: EXTERNALID: DEMODOCTORKC, MESSAGING: 11817978, NPI: 123456789</p><p><b>Gender</b>: Female</p><p><b>Status</b>: Active</p></div>"},"identifier":[{"use":"usual","type":{"text":"External Identifier"},"_system":{"extension":[{"url":"http://hl7.org/fhir/StructureDefinition/data-absent-reason","valueCode":"unknown"}]},"value":"DEMODOCTORKC","period":{"start":"2015-09-22T05:00:00.000Z"}},{"use":"usual","type":{"coding":[{"system":"http://terminology.hl7.org/CodeSystem/v2-0203","code":"U","display":"Unspecified identifier"}],"text":"Messaging"},"_system":{"extension":[{"url":"http://hl7.org/fhir/StructureDefinition/data-absent-reason","valueCode":"unknown"}]},"value":"11817978","period":{"start":"2015-09-22T05:00:00.000Z"}},{"use":"usual","type":{"coding":[{"system":"http://terminology.hl7.org/CodeSystem/v2-0203","code":"NPI","display":"National provider identifier"}],"text":"National Provider Identifier"},"system":"http://hl7.org/fhir/sid/us-npi","value":"123456789","period":{"start":"2016-06-21T05:00:00.000Z"}}],"active":true,"name":[{"use":"usual","text":"Carter, Kristin Cerner","family":"Carter","given":["Kristin","Cerner"],"period":{"start":"2017-01-24T15:37:42.000Z"}}],"telecom":[{"system":"email","value":"kcarter@gmail.com","use":"work"},{"system":"phone","value":"2122122211","use":"work"},{"system":"fax","value":"2322223333","use":"work"}],"address":[{"use":"work","text":"1234 Main St\nKansas City, 64113\nUS","line":["1234 Main St"],"city":"Kansas City","postalCode":"64113","country":"US"}],"gender":"female"}},{"resource":{"resourceType":"Practitioner","id":"4122625","meta":{"versionId":"15","lastUpdated":"2016-04-28T15:01:58.000Z"},"text":{"status":"generated","div":"<div xmlns=\"http://www.w3.org/1999/xhtml\"><p><b>Practitioner</b></p><p><b>Name</b>: Cerner Test, Physician - Cardiovascular Cerner</p><p><b>Identifiers</b>: EXTERNALID: CERNERPHYSCARDIO, MESSAGING: 4122625</p><p><b>Status</b>: Active</p></div>"},"identifier":[{"use":"usual","type":{"text":"External Identifier"},"_system":{"extension":[{"url":"http://hl7.org/fhir/StructureDefinition/data-absent-reason","valueCode":"unknown"}]},"value":"CERNERPHYSCARDIO","period":{"start":"2016-04-28T15:01:58.000Z"}},{"use":"usual","type":{"coding":[{"system":"http://terminology.hl7.org/CodeSystem/v2-0203","code":"U","display":"Unspecified identifier"}],"text":"Messaging"},"_system":{"extension":[{"url":"http://hl7.org/fhir/StructureDefinition/data-absent-reason","valueCode":"unknown"}]},"value":"4122625","period":{"start":"2015-08-18T05:00:00.000Z"}}],"active":true,"name":[{"use":"usual","text":"Cerner Test, Physician - Cardiovascular Cerner","family":"Cerner Test","given":["Physician - Cardiovascular","Cerner"],"period":{"start":"2016-04-28T15:01:58.000Z"}}]}},{"resource":{"resourceType":"Practitioner","id":"4122622","meta":{"versionId":"18","lastUpdated":"2016-04-28T15:01:59.000Z"},"text":{"status":"generated","div":"<div xmlns=\"http://www.w3.org/1999/xhtml\"><p><b>Practitioner</b></p><p><b>Name</b>: Cerner Test, Physician - Hospitalist Cerner</p><p><b>Identifiers</b>: MESSAGING: 4122622, EXTERNALID: CERNERPHYSHOSP, NPI: 1111111111</p><p><b>Status</b>: Active</p></div>"},"identifier":[{"use":"usual","type":{"coding":[{"system":"http://terminology.hl7.org/CodeSystem/v2-0203","code":"U","display":"Unspecified identifier"}],"text":"Messaging"},"_system":{"extension":[{"url":"http://hl7.org/fhir/StructureDefinition/data-absent-reason","valueCode":"unknown"}]},"value":"4122622","period":{"start":"2015-08-18T05:00:00.000Z"}},{"use":"usual","type":{"text":"External Identifier"},"_system":{"extension":[{"url":"http://hl7.org/fhir/StructureDefinition/data-absent-reason","valueCode":"unknown"}]},"value":"CERNERPHYSHOSP","period":{"start":"2016-04-28T15:01:59.000Z"}},{"use":"usual","type":{"coding":[{"system":"http://terminology.hl7.org/CodeSystem/v2-0203","code":"NPI","display":"National provider identifier"}],"text":"National Provider Identifier"},"_system":{"extension":[{"url":"http://hl7.org/fhir/StructureDefinition/data-absent-reason","valueCode":"unknown"}]},"value":"1111111111","period":{"start":"2015-10-14T05:00:00.000Z"}}],"active":true,"name":[{"use":"usual","text":"Cerner Test, Physician - Hospitalist Cerner","family":"Cerner Test","given":["Physician - Hospitalist","Cerner"],"period":{"start":"2015-09-22T20:58:42.000Z"}}]}},{"resource":{"resourceType":"Practitioner","id":"607928","meta":{"versionId":"18","lastUpdated":"2016-04-28T15:02:06.000Z"},"text":{"status":"generated","div":"<div xmlns=\"http://www.w3.org/1999/xhtml\"><p><b>Practitioner</b></p><p><b>Name</b>: Cerner Test, Nurse Cerner</p><p><b>Identifiers</b>: EXTERNALID: CERNERNURSERN</p><p><b>Status</b>: Active</p></div>"},"identifier":[{"use":"usual","type":{"text":"External Identifier"},"_system":{"extension":[{"url":"http://hl7.org/fhir/StructureDefinition/data-absent-reason","valueCode":"unknown"}]},"value":"CERNERNURSERN","period":{"start":"2016-04-28T15:02:06.000Z"}}],"active":true,"name":[{"use":"usual","text":"Cerner Test, Nurse Cerner","family":"Cerner Test","given":["Nurse","Cerner"],"period":{"start":"2016-04-28T15:02:06.000Z"}}]}},{"resource":{"resourceType":"Practitioner","id":"607928","meta":{"versionId":"18","lastUpdated":"2016-04-28T15:02:06.000Z"},"text":{"status":"generated","div":"<div xmlns=\"http://www.w3.org/1999/xhtml\"><p><b>Practitioner</b></p><p><b>Name</b>: Cerner Test, Nurse Cerner</p><p><b>Identifiers</b>: EXTERNALID: CERNERNURSERN</p><p><b>Status</b>: Active</p></div>"},"identifier":[{"use":"usual","type":{"text":"External Identifier"},"_system":{"extension":[{"url":"http://hl7.org/fhir/StructureDefinition/data-absent-reason","valueCode":"unknown"}]},"value":"CERNERNURSERN","period":{"start":"2016-04-28T15:02:06.000Z"}}],"active":true,"name":[{"use":"usual","text":"Cerner Test, Nurse Cerner","family":"Cerner Test","given":["Nurse","Cerner"],"period":{"start":"2016-04-28T15:02:06.000Z"}}]}},{"resource":{"resourceType":"Practitioner","id":"11938004","meta":{"versionId":"1","lastUpdated":"2017-01-24T15:34:13.000Z"},"text":{"status":"generated","div":"<div xmlns=\"http://www.w3.org/1999/xhtml\"><p><b>Practitioner</b></p><p><b>Name</b>: Bradford, MD, Michael Cerner</p><p><b>Identifiers</b>: MESSAGING: 11938004, EXTERNALID: DEMOPATH6</p><p><b>Status</b>: Active</p></div>"},"identifier":[{"use":"usual","type":{"coding":[{"system":"http://terminology.hl7.org/CodeSystem/v2-0203","code":"U","display":"Unspecified identifier"}],"text":"Messaging"},"_system":{"extension":[{"url":"http://hl7.org/fhir/StructureDefinition/data-absent-reason","valueCode":"unknown"}]},"value":"11938004","period":{"start":"2015-12-15T06:00:00.000Z"}},{"use":"usual","type":{"text":"External Identifier"},"_system":{"extension":[{"url":"http://hl7.org/fhir/StructureDefinition/data-absent-reason","valueCode":"unknown"}]},"value":"DEMOPATH6","period":{"start":"2015-12-14T21:33:11.000Z"}}],"active":true,"name":[{"use":"usual","text":"Bradford, MD, Michael Cerner","family":"Bradford","given":["Michael","Cerner"],"prefix":["MD"],"period":{"start":"2017-01-24T15:34:13.000Z"}}]}},{"resource":{"resourceType":"Encounter","id":"97953900","meta":{"versionId":"1","lastUpdated":"2020-05-13T13:40:21.000Z"},"text":{"status":"generated","div":"<div xmlns=\"http://www.w3.org/1999/xhtml\"><p><b>Encounter</b></p><p><b>Patient</b>: FHIRTest, COVIDONE</p><p><b>Location</b>: Model Hospital, MX Hospital, ICU</p><p><b>Type</b>: Inpatient</p><p><b>Service Type</b>: Cardiology</p><p><b>Class</b>: inpatient encounter</p><p><b>Status</b>: In Progress</p><p><b>Period Start Date</b>: May 12, 2020  1:40 P.M. UTC</p><p><b>Reason For Visit</b>: Shortness of Breath, Cough, Rule out COVID-19</p><p><b>Attending Physician</b>: Carter, Kristin Cerner</p></div>"},"identifier":[{"use":"usual","type":{"coding":[{"system":"https://fhir.cerner.com/ec2458f2-1e24-41c8-b71b-0e701af7583d/codeSet/319","code":"1077","display":"FIN NBR","userSelected":true},{"system":"http://terminology.hl7.org/CodeSystem/v2-0203","code":"AN","display":"Account number","userSelected":false}],"text":"FIN NBR"},"system":"urn:oid:5.5.5.5.5.5.","value":"98314717","period":{"start":"2020-05-12T13:40:56.000Z"}}],"status":"in-progress","class":{"system":"http://terminology.hl7.org/CodeSystem/v3-ActCode","code":"IMP","display":"inpatient encounter","userSelected":false},"type":[{"coding":[{"system":"https://fhir.cerner.com/ec2458f2-1e24-41c8-b71b-0e701af7583d/codeSet/71","code":"309308","display":"Inpatient","userSelected":true},{"system":"http://terminology.hl7.org/CodeSystem/v2-0004","code":"I","display":"Inpatient","userSelected":false}],"text":"Inpatient"}],"serviceType":{"coding":[{"system":"https://fhir.cerner.com/ec2458f2-1e24-41c8-b71b-0e701af7583d/codeSet/34","code":"33536475","display":"Cardiology","userSelected":true},{"system":"http://snomed.info/sct","code":"3471000175103","display":"Cardiology service (qualifier value)","userSelected":false}],"text":"Cardiology"},"priority":{"coding":[{"system":"https://fhir.cerner.com/ec2458f2-1e24-41c8-b71b-0e701af7583d/codeSet/3","code":"309203","display":"Emergency","userSelected":true},{"system":"http://terminology.hl7.org/CodeSystem/v3-ActPriority","code":"EM","display":"emergency","userSelected":false}],"text":"Emergency"},"subject":{"reference":"Patient/12742571","display":"FHIRTest, COVIDONE"},"participant":[{"type":[{"coding":[{"system":"https://fhir.cerner.com/ec2458f2-1e24-41c8-b71b-0e701af7583d/codeSet/333","code":"1116","display":"Admitting Physician","userSelected":true},{"system":"http://terminology.hl7.org/CodeSystem/v3-ParticipationType","code":"ADM","display":"admitter","userSelected":false}],"text":"Admitting Physician"}],"period":{"start":"2020-05-12T13:40:56.000Z"},"individual":{"reference":"Practitioner/11817978","display":"Carter, Kristin Cerner"}},{"type":[{"coding":[{"system":"https://fhir.cerner.com/ec2458f2-1e24-41c8-b71b-0e701af7583d/codeSet/333","code":"1119","display":"Attending Physician","userSelected":true},{"system":"http://terminology.hl7.org/CodeSystem/v3-ParticipationType","code":"ATND","display":"attender","userSelected":false}],"text":"Attending Physician"}],"period":{"start":"2020-05-12T13:40:56.000Z"},"individual":{"reference":"Practitioner/11817978","display":"Carter, Kristin Cerner"}},{"type":[{"coding":[{"system":"https://fhir.cerner.com/ec2458f2-1e24-41c8-b71b-0e701af7583d/codeSet/333","code":"1121","display":"Consulting Physician","userSelected":true},{"system":"http://terminology.hl7.org/CodeSystem/v3-ParticipationType","code":"CON","display":"consultant","userSelected":false}],"text":"Consulting Physician"}],"period":{"start":"2020-05-12T13:40:56.000Z"},"individual":{"reference":"Practitioner/4122625","display":"Cerner Test, Physician - Cardiovascular Cerner"}},{"type":[{"coding":[{"system":"https://fhir.cerner.com/ec2458f2-1e24-41c8-b71b-0e701af7583d/codeSet/333","code":"1121","display":"Consulting Physician","userSelected":true},{"system":"http://terminology.hl7.org/CodeSystem/v3-ParticipationType","code":"CON","display":"consultant","userSelected":false}],"text":"Consulting Physician"}],"period":{"start":"2020-05-12T13:40:56.000Z"},"individual":{"reference":"Practitioner/4122622","display":"Cerner Test, Physician - Hospitalist Cerner"}},{"type":[{"coding":[{"system":"https://fhir.cerner.com/ec2458f2-1e24-41c8-b71b-0e701af7583d/codeSet/333","code":"1125","display":"Registered Nurse","userSelected":true},{"system":"http://terminology.hl7.org/CodeSystem/v3-ParticipationType","code":"SPRF","display":"secondary performer","userSelected":false}],"text":"Registered Nurse"}],"period":{"start":"2020-05-12T13:40:56.000Z","end":"2020-04-30T06:01:53.000Z"},"individual":{"reference":"Practitioner/607928","display":"Cerner Test, Nurse Cerner"}},{"type":[{"coding":[{"system":"https://fhir.cerner.com/ec2458f2-1e24-41c8-b71b-0e701af7583d/codeSet/333","code":"1125","display":"Registered Nurse","userSelected":true},{"system":"http://terminology.hl7.org/CodeSystem/v3-ParticipationType","code":"SPRF","display":"secondary performer","userSelected":false}],"text":"Registered Nurse"}],"period":{"start":"2020-05-12T13:40:56.000Z","end":"2020-04-29T10:01:51.000Z"},"individual":{"reference":"Practitioner/607928","display":"Cerner Test, Nurse Cerner"}},{"type":[{"coding":[{"system":"https://fhir.cerner.com/ec2458f2-1e24-41c8-b71b-0e701af7583d/codeSet/333","code":"1126","display":"Referring Physician","userSelected":true},{"system":"http://terminology.hl7.org/CodeSystem/v3-ParticipationType","code":"REF","display":"referrer","userSelected":false}],"text":"Referring Physician"}],"period":{"start":"2020-05-12T13:40:56.000Z"},"individual":{"reference":"Practitioner/11938004","display":"Bradford, MD, Michael Cerner"}}],"period":{"start":"2020-05-12T13:40:56.000Z"},"reasonCode":[{"text":"Shortness of Breath, Cough, Rule out COVID-19"}],"hospitalization":{"admitSource":{"coding":[{"system":"https://fhir.cerner.com/ec2458f2-1e24-41c8-b71b-0e701af7583d/codeSet/2","code":"309191","display":"Clinic or Physician Office Referral","userSelected":true},{"system":"http://terminology.hl7.org/CodeSystem/admit-source","code":"gp","display":"General Practitioner referral","userSelected":false}],"text":"Clinic or Physician Office Referral"}},"location":[{"location":{"reference":"Location/29598629","display":"Model Hospital, MX Hospital, ICU"},"status":"active"}],"serviceProvider":{"reference":"Organization/675844"}}},{"resource":{"resourceType":"Condition","id":"d2572364249","meta":{"versionId":"2572364249","lastUpdated":"2020-05-13T19:04:28.000Z"},"text":{"status":"generated","div":"<div xmlns=\"http://www.w3.org/1999/xhtml\"><p><b>Condition</b></p><p><b>Patient</b>: FHIRTest, COVIDONE</p><p><b>Diagnosis</b>: Disease caused by 2019 novel coronavirus, Disease caused by 2019-nCoV</p><p><b>Clinical Status</b>: Active</p><p><b>Verification Status</b>: Confirmed</p><p><b>Onset</b>: May 13, 2020  7:04 P.M. UTC</p></div>"},"clinicalStatus":{"coding":[{"system":"http://terminology.hl7.org/CodeSystem/condition-clinical","code":"active","display":"Active"}],"text":"Active"},"verificationStatus":{"coding":[{"system":"http://terminology.hl7.org/CodeSystem/condition-ver-status","code":"confirmed","display":"Confirmed","userSelected":false}],"text":"Confirmed"},"category":[{"coding":[{"system":"http://terminology.hl7.org/CodeSystem/condition-category","code":"encounter-diagnosis","display":"Encounter Diagnosis"}],"text":"Encounter Diagnosis"}],"code":{"coding":[{"system":"http://snomed.info/sct","code":"840539006","display":"Disease caused by 2019-nCoV","userSelected":true},{"system":"http://hl7.org/fhir/sid/icd-10-cm","code":"U07.1","display":"2019-nCoV acute respiratory disease","userSelected":false}],"text":"Disease caused by 2019 novel coronavirus"},"subject":{"reference":"Patient/12742571","display":"FHIRTest, COVIDONE"},"encounter":{"reference":"Encounter/97953900"},"onsetDateTime":"2020-05-13T19:04:00.000Z","recordedDate":"2020-05-13T19:04:28.000Z","recorder":{"reference":"Practitioner/4122622","display":"Cerner Test, Physician - Hospitalist Cerner"}}}]}